Folder: IC2ML-Unified-battery-health-prognostics-via-intra-and-inter-cycle-enhanced-machine-learning/dataset/NCM/V3.6-3.7 (part 2)

File: CY45-05_1-#1.csv
Cycle,Charge_Current,Discharge_Current,Temperature,Capacity_Increment,Relaxation_Voltage,Discharge_Capacity,Start_Voltage,End_Voltage
2,0.5,1,45,"[0.0, 33.6392, 69.5247, 106.331, 146.242, 188.595, 235.822, 290.431, 350.109, 407.708]","[4.18619, 4.18308, 4.18115, 4.17961, 4.17851, 4.17745, 4.17654, 4.17579, 4.1754, 4.17481, 4.17434, 4.17386, 4.17367, 4.17319]",3298.18,3.6,3.7
13,0.5,1,45,"[0.0, 22.4946, 58.2215, 93.8075, 131.928, 172.574, 217.68, 270.414, 328.725, 378.557]","[4.18599, 4.182919, 4.18091, 4.17945, 4.178391, 4.17733, 4.1765, 4.17579, 4.17516, 4.17481, 4.1743, 4.17382, 4.17355, 4.17308]",3252.96,3.6,3.7
24,0.5,1,45,"[0.0, 35.4215, 70.5335, 105.521, 142.648, 182.974, 226.675, 276.567, 333.979, 393.068]","[4.185636, 4.18256, 4.1806, 4.17906, 4.17784, 4.17689, 4.17603, 4.17532, 4.17489, 4.174099, 4.17374, 4.17319, 4.173, 4.1726]",3215.67,3.6,3.7
35,0.5,1,45,"[0.0, 31.4824, 67.004, 101.434, 137.946, 177.368, 219.913, 268.943, 324.962, 378.548]","[4.18568, 4.1826, 4.18048, 4.17882, 4.17768, 4.17654, 4.17579, 4.17504, 4.17445, 4.17394, 4.17339, 4.17319, 4.17256, 4.17237]",3185.79,3.6,3.7
46,0.5,1,45,"[0.0, 25.0825, 60.6878, 95.1364, 130.807, 170.107, 211.432, 259.117, 314.435, 363.972]","[4.18524, 4.18217, 4.18016, 4.17847, 4.17733, 4.1763, 4.17544, 4.17465, 4.17394, 4.17347, 4.173, 4.17248, 4.17221, 4.17189]",3160.47,3.6,3.7
59,0.5,1,45,"[0.0, 35.7044, 71.0338, 105.618, 140.85, 178.761, 220.007, 265.484, 319.868, 363.981]","[4.18505, 4.18193, 4.17989, 4.17827, 4.17697, 4.17587, 4.17516, 4.17437, 4.17363, 4.17315, 4.17264, 4.17213, 4.17182, 4.17126]",3135.61,3.6,3.7
70,0.5,1,45,"[0.0, 25.0247, 60.585, 95.2435, 129.459, 167.647, 208.488, 252.812, 306.101, 349.391]","[4.184927, 4.18146, 4.17949, 4.17776, 4.17646, 4.1754, 4.17461, 4.17394, 4.17315, 4.1726, 4.17197, 4.17158, 4.1713, 4.17099]",3116.49,3.6,3.7
81,0.5,1,45,"[0.0, 29.8423, 65.2552, 99.6679, 134.538, 171.556, 211.773, 255.759, 307.924, 363.96]","[4.184494, 4.18127, 4.17906, 4.17733, 4.17611, 4.17504, 4.17422, 4.17327, 4.17276, 4.17217, 4.17162, 4.17134, 4.17071, 4.1704]",3098.95,3.6,3.7
92,0.5,1,45,"[0.0, 36.4833, 72.2788, 106.857, 140.809, 177.871, 217.495, 260.542, 311.602, 363.973]","[4.18438, 4.18115, 4.1789, 4.17729, 4.17595, 4.17481, 4.17406, 4.17315, 4.17252, 4.17178, 4.17126, 4.17079, 4.17048, 4.16993]",3083.81,3.6,3.7
105,0.5,1,45,"[0.0, 23.5998, 59.6029, 94.2164, 127.923, 164.189, 203.752, 246.497, 296.503, 349.408]","[4.18418, 4.18099, 4.178627, 4.17689, 4.17552, 4.17457, 4.17367, 4.17272, 4.17197, 4.17142, 4.17071, 4.17032, 4.16993, 4.16945]",3067.08,3.6,3.7
116,0.5,1,45,"[0.0, 31.6604, 67.4415, 101.65, 136.088, 172.141, 211.121, 252.922, 301.723, 349.269]","[4.18398, 4.18052, 4.17823, 4.17646, 4.17532, 4.174099, 4.17327, 4.17241, 4.171658, 4.17095, 4.17048, 4.16993, 4.16953, 4.16906]",3053.07,3.6,3.7
127,0.5,1,45,"[0.0, 24.3511, 60.428, 95.6445, 129.219, 165.106, 203.281, 245.215, 293.169, 334.631]","[4.18367, 4.18036, 4.17804, 4.17626, 4.17497, 4.17371, 4.17292, 4.17205, 4.17123, 4.17063, 4.16996, 4.16957, 4.16906, 4.16859]",3040.39,3.6,3.7
138,0.5,1,45,"[0.0, 34.7476, 70.5437, 105.685, 139.462, 174.779, 213.276, 253.949, 301.257, 349.443]","[4.18339, 4.179966, 4.17756, 4.17587, 4.17445, 4.17319, 4.17229, 4.17138, 4.17067, 4.17, 4.16933, 4.16902, 4.16847, 4.16804]",3027.73,3.6,3.7
149,0.5,1,45,"[0.0, 23.8888, 60.34, 95.2458, 129.253, 163.891, 202.062, 242.695, 289.154, 334.883]","[4.18323, 4.17973, 4.17737, 4.17552, 4.174099, 4.1728, 4.17178, 4.17095, 4.17028, 4.16965, 4.1689, 4.16847, 4.16804, 4.167563]",3016.22,3.6,3.7
162,0.5,1,45,"[0.0, 34.2325, 70.1471, 105.415, 139.251, 173.559, 211.529, 251.605, 297.491, 349.436]","[4.182919, 4.17922, 4.1767, 4.17497, 4.17355, 4.17221, 4.17126, 4.1702, 4.16957, 4.16898, 4.16835, 4.16768, 4.16729, 4.16678]",3002.96,3.6,3.7
173,0.5,1,45,"[0.0, 27.2248, 63.2052, 98.5688, 132.072, 166.826, 203.701, 244.056, 288.603, 334.792]","[4.18284, 4.1791, 4.17658, 4.17477, 4.17335, 4.17221, 4.17099, 4.17028, 4.16933, 4.16863, 4.16792, 4.16741, 4.16709, 4.16666]",2992.02,3.6,3.7
184,0.5,1,45,"[0.0, 24.0485, 59.5492, 94.8952, 128.542, 160.211, 200.718, 240.632, 283.571, 330.845]","[4.18237, 4.17886, 4.17626, 4.1743, 4.17288, 4.171658, 4.17048, 4.16961, 4.16867, 4.16808, 4.16741, 4.16678, 4.16622, 4.16579]",2981.21,3.6,3.7
195,0.5,1,45,"[0.0, 31.2137, 66.7824, 102.179, 135.67, 170.114, 207.054, 246.1, 290, 334.504]","[4.18245, 4.17867, 4.17607, 4.17426, 4.17268, 4.1715, 4.17048, 4.16957, 4.16855, 4.16784, 4.16733, 4.166697, 4.16618, 4.16571]",2970.96,3.6,3.7
208,0.5,1,45,"[0.0, 34.955, 71.1102, 106.826, 140.348, 174.721, 210.954, 249.895, 292.367, 334.833]","[4.1819, 4.17823, 4.17571, 4.17371, 4.172091, 4.17091, 4.16965, 4.16874, 4.16788, 4.16713, 4.16662, 4.16591, 4.1654, 4.16496]",2959.46,3.6,3.7
219,0.5,1,45,"[0.0, 32.2266, 68.6991, 103.351, 137.661, 171.655, 207.97, 246.489, 288.861, 334.832]","[4.18166, 4.17792, 4.1754, 4.17327, 4.17178, 4.170516, 4.1693, 4.16835, 4.16741, 4.16674, 4.16607, 4.16544, 4.16496, 4.164413]",2949.34,3.6,3.7
230,0.5,1,45,"[0.0, 26.0134, 62.0886, 97.7135, 131.673, 165.692, 201.241, 239.669, 281.394, 320.324]","[4.1815, 4.17752, 4.17504, 4.173, 4.17126, 4.17, 4.1689, 4.16784, 4.16693, 4.16638, 4.165555, 4.165, 4.164413, 4.1641]",2939.58,3.6,3.7
241,0.5,1,45,"[0.0, 22.8592, 58.9872, 93.8312, 128.531, 161.528, 197.409, 236.054, 276.878, 320.224]","[4.18119, 4.17729, 4.17461, 4.17264, 4.17095, 4.16957, 4.16843, 4.1676, 4.1665, 4.16579, 4.16516, 4.16449, 4.16398, 4.16343]",2930.31,3.6,3.7
252,0.5,1,45,"[0.0, 30.0931, 66.0157, 101.557, 136.048, 169.746, 205.474, 242.771, 283.607, 320.315]","[4.18103, 4.17713, 4.1743, 4.17241, 4.17067, 4.1693, 4.16823, 4.16717, 4.16615, 4.16559, 4.16473, 4.16414, 4.16359, 4.16292]",2921.16,3.6,3.7
265,0.5,1,45,"[0.0, 22.497, 58.592, 93.578, 128.289, 161.587, 196.625, 234.402, 274.665, 320.131]","[4.18064, 4.17678, 4.17394, 4.17189, 4.17016, 4.16882, 4.167563, 4.16674, 4.16575, 4.16504, 4.16437, 4.16366, 4.16303, 4.16256]",2910.97,3.6,3.7
276,0.5,1,45,"[0.0, 32.593, 68.0115, 103.833, 138.346, 172.006, 206.674, 243.992, 284.412, 320.082]","[4.18032, 4.17623, 4.17355, 4.17134, 4.16993, 4.16827, 4.16717, 4.16618, 4.16524, 4.16437, 4.16378, 4.16303, 4.16252, 4.16189]",2901.67,3.6,3.7
287,0.5,1,45,"[0.0, 25.8464, 61.5787, 97.2112, 131.102, 165.191, 199.874, 236.817, 276.712, 320.093]","[4.18012, 4.17619, 4.173233, 4.17119, 4.16949, 4.16804, 4.16689, 4.16571, 4.16481, 4.16398, 4.16327, 4.16256, 4.16209, 4.16158]",2892.91,3.6,3.7
298,0.5,1,45,"[0.0, 34.3067, 69.6463, 105.537, 140.142, 173.293, 208.304, 245.476, 284.684, 320.324]","[4.179769, 4.17583, 4.17296, 4.17079, 4.16906, 4.1676, 4.16638, 4.16524, 4.16445, 4.16347, 4.16296, 4.16213, 4.16142, 4.161027]",2884.18,3.6,3.7
311,0.5,1,45,"[0.0, 25.7143, 61.2402, 96.4123, 130.961, 165.078, 199.454, 236.234, 275.222, 305.785]","[4.179533, 4.17544, 4.17256, 4.17044, 4.16863, 4.16721, 4.16591, 4.16481, 4.1639, 4.16311, 4.16233, 4.16154, 4.16115, 4.16044]",2874.09,3.6,3.7
322,0.5,1,45,"[0.0, 22.2361, 57.2304, 92.9427, 127.67, 161.424, 195.974, 232.038, 270.969, 305.775]","[4.17914, 4.17497, 4.172091, 4.16985, 4.16815, 4.16658, 4.16552, 4.1643, 4.16339, 4.16244, 4.16174, 4.16095, 4.16044, 4.15985]",2865.16,3.6,3.7
333,0.5,1,45,"[0.0, 32.1647, 67.086, 102.675, 137.745, 171.185, 205.02, 241.236, 279.838, 320.281]","[4.17902, 4.17465, 4.17189, 4.16969, 4.16788, 4.16638, 4.165122, 4.16402, 4.16292, 4.16221, 4.16154, 4.16071, 4.16, 4.15949]",2856.98,3.6,3.7
344,0.5,1,45,"[0.0, 26.169, 60.801, 96.8589, 130.822, 165.099, 199.174, 235.389, 273.397, 305.675]","[4.17875, 4.17457, 4.1715, 4.16933, 4.16748, 4.165988, 4.16481, 4.16359, 4.16256, 4.1617, 4.161027, 4.16036, 4.159688, 4.15914]",2848.99,3.6,3.7
355,0.5,1,45,"[0.0, 33.6352, 68.4968, 104.027, 138.94, 172.755, 206.546, 242.131, 280.528, 320.068]","[4.17831, 4.17406, 4.17115, 4.1689, 4.16721, 4.16559, 4.1643, 4.16307, 4.16217, 4.1613, 4.16051, 4.15981, 4.1591, 4.15859]",2840.51,3.6,3.7
368,0.5,1,45,"[0.0, 27.9088, 63.1723, 98.9349, 133.406, 167.208, 200.953, 236.512, 274.524, 305.565]","[4.17808, 4.17386, 4.17083, 4.16855, 4.16678, 4.16508, 4.16378, 4.16272, 4.16166, 4.16079, 4.15996, 4.15933, 4.15863, 4.15807]",2831.22,3.6,3.7
379,0.5,1,45,"[0.0, 21.9225, 56.5004, 91.5888, 126.868, 160.192, 194.039, 229.841, 267.216, 305.505]","[4.1778, 4.17331, 4.17036, 4.16811, 4.16618, 4.16461, 4.16339, 4.16213, 4.16118, 4.16032, 4.15949, 4.15878, 4.15807, 4.157444]",2822.79,3.6,3.7
390,0.5,1,45,"[0.0, 31.6445, 66.0173, 101.398, 136.385, 170.14, 203.892, 239.086, 276.632, 305.616]","[4.17741, 4.17304, 4.17, 4.16768, 4.16587, 4.16422, 4.16296, 4.16174, 4.16067, 4.15992, 4.15906, 4.15819, 4.15756, 4.15689]",2814.58,3.6,3.7
401,0.5,1,45,"[0.0, 24.7851, 58.8573, 94.079, 129.468, 163.446, 196.842, 231.781, 268.632, 305.371]","[4.17733, 4.17284, 4.16981, 4.16733, 4.16563, 4.16398, 4.16256, 4.16146, 4.16048, 4.15953, 4.1587, 4.15792, 4.15721, 4.15666]",2807.03,3.6,3.7
414,0.5,1,45,"[0.0, 28.4694, 62.4927, 97.865, 132.804, 166.753, 199.967, 234.998, 272.07, 305.544]","[4.17693, 4.17245, 4.16941, 4.16705, 4.16508, 4.16366, 4.16225, 4.16099, 4.16, 4.15922, 4.15823, 4.15756, 4.15677, 4.15622]",2797.48,3.6,3.7
425,0.5,1,45,"[0.0, 23.9105, 58.2332, 93.031, 127.981, 162.065, 195.376, 230.27, 266.754, 305.763]","[4.17662, 4.17233, 4.16918, 4.16674, 4.16493, 4.16323, 4.16201, 4.16071, 4.15977, 4.15878, 4.157877, 4.15709, 4.15634, 4.15575]",2789.21,3.6,3.7
436,0.5,1,45,"[0.0, 22.4115, 56.5583, 91.4502, 126.433, 160.227, 193.913, 228.78, 265.037, 290.775]","[4.176383, 4.17178, 4.16863, 4.16638, 4.16453, 4.16272, 4.16142, 4.1602, 4.15918, 4.15819, 4.1574, 4.15654, 4.15599, 4.15532]",2781.02,3.6,3.7
447,0.5,1,45,"[0.0, 29.6474, 63.9561, 98.864, 133.674, 167.477, 200.939, 235.653, 271.868, 305.184]","[4.17611, 4.17158, 4.16843, 4.16603, 4.16394, 4.16248, 4.16111, 4.15992, 4.15874, 4.15796, 4.15705, 4.15614, 4.15555, 4.155]",2773.43,3.6,3.7
458,0.5,1,45,"[0.0, 26.9545, 60.4314, 95.3977, 129.97, 164.366, 197.517, 232.235, 268.194, 305.185]","[4.17575, 4.17123, 4.16804, 4.16563, 4.16359, 4.16193, 4.16059, 4.15937, 4.15839, 4.157444, 4.1565, 4.15571, 4.154963, 4.15437]",2765.45,3.6,3.7
465,0.5,1,45,"[0.0, 22.3765, 55.8832, 90.5117, 125.666, 160.017, 193.341, 227.408, 263.207, 290.738]","[4.1754, 4.17083, 4.167563, 4.16516, 4.16319, 4.16154, 4.16016, 4.159019, 4.15792, 4.15693, 4.15614, 4.15524, 4.15453, 4.15398]",2760,3.6,3.7