Folder: IC2ML-Unified-battery-health-prognostics-via-intra-and-inter-cycle-enhanced-machine-learning/dataset/NCM/V3.6-3.7

Note: README.md
# IC2ML-Unified-battery-health-prognostics-via-intra--and-inter-cycle-enhanced-machine-learning
IC2ML: Unified battery health prognostics via intra- and inter-cycle enhanced machine learning

File: CY25-05_1-#1.csv
Cycle,Charge_Current,Discharge_Current,Temperature,Capacity_Increment,Relaxation_Voltage,Discharge_Capacity,Start_Voltage,End_Voltage
2,0.5,1,25,"[0.0, 32.0513, 69.9755, 108.394, 147.3, 189.432, 235.459, 290.112, 347.241, 393.548]","[4.18168, 4.17727, 4.1744, 4.17219, 4.17042, 4.16896, 4.16786, 4.16688, 4.16601, 4.16515, 4.16459, 4.16396, 4.16349, 4.16306]",3221.57,3.6,3.7
7,0.5,1,25,"[0.0, 33.5908, 70.7895, 108.472, 147.076, 188.327, 233.193, 285.507, 343.178, 393.554]","[4.18172, 4.17723, 4.17424, 4.17211, 4.1703, 4.168807, 4.16774, 4.16664, 4.16589, 4.16515, 4.16448, 4.16392, 4.16333, 4.1629]",3212.26,3.6,3.7
12,0.5,1,25,"[0.0, 31.4603, 68.6126, 105.714, 143.764, 184.087, 228.081, 280.177, 337.152, 393.557]","[4.18149, 4.17704, 4.173965, 4.17176, 4.17011, 4.168807, 4.16759, 4.16648, 4.1657, 4.16491, 4.1642, 4.16381, 4.16326, 4.162704]",3199.81,3.6,3.7
17,0.5,1,25,"[0.0, 20.8268, 57.79, 94.3841, 131.939, 171.981, 215.248, 266.604, 323.324, 378.984]","[4.18137, 4.17696, 4.174, 4.1718, 4.17003, 4.16865, 4.16751, 4.16648, 4.165657, 4.16487, 4.1642, 4.16373, 4.16322, 4.16266]",3186.78,3.6,3.7
22,0.5,1,25,"[0.0, 26.196, 62.4945, 98.9682, 136.592, 175.734, 218.956, 268.704, 324.945, 378.972]","[4.18105, 4.1768, 4.173768, 4.1716, 4.16987, 4.16845, 4.16735, 4.16633, 4.16534, 4.16475, 4.16404, 4.16349, 4.16302, 4.16243]",3173.96,3.6,3.7
27,0.5,1,25,"[0.0, 26.8545, 62.8345, 99.4369, 136.275, 175.304, 218.291, 267.226, 323.041, 378.963]","[4.18121, 4.176682, 4.17365, 4.17145, 4.16975, 4.16841, 4.16719, 4.16621, 4.16538, 4.16459, 4.16408, 4.16341, 4.16294, 4.16243]",3162.21,3.6,3.7
32,0.5,1,25,"[0.0, 24.482, 60.4844, 96.8954, 133.914, 172.333, 214.443, 262.738, 318.48, 364.382]","[4.18121, 4.17656, 4.17365, 4.17141, 4.16967, 4.16818, 4.16719, 4.16617, 4.165185, 4.16455, 4.16381, 4.16326, 4.162704, 4.162271]",3151.1,3.6,3.7
37,0.5,1,25,"[0.0, 20.985, 56.554, 92.8258, 129.667, 167.932, 209.679, 257.216, 312.234, 364.388]","[4.18097, 4.17664, 4.17357, 4.17137, 4.16967, 4.1681, 4.16704, 4.16609, 4.16522, 4.16428, 4.16381, 4.16314, 4.16259, 4.16207]",3141.19,3.6,3.7
42,0.5,1,25,"[0.0, 30.0222, 64.8807, 101.195, 137.801, 176.194, 217.19, 264.502, 319.308, 364.182]","[4.18097, 4.17629, 4.173532, 4.17125, 4.16952, 4.16806, 4.1668, 4.16593, 4.16507, 4.16424, 4.16365, 4.16306, 4.16239, 4.162]",3131.57,3.6,3.7
47,0.5,1,25,"[0.0, 26.3703, 61.4578, 97.444, 133.708, 171.879, 212.797, 259.619, 314.012, 364.366]","[4.18089, 4.17633, 4.17334, 4.17117, 4.16944, 4.16798, 4.16684, 4.1657, 4.16487, 4.16424, 4.16365, 4.16298, 4.16239, 4.16188]",3122.68,3.6,3.7
52,0.5,1,25,"[0.0, 20.942, 56.077, 91.8292, 128.119, 165.857, 206.166, 252.903, 307.58, 349.763]","[4.1807, 4.17637, 4.17334, 4.17101, 4.1692, 4.16786, 4.1668, 4.16574, 4.16483, 4.16408, 4.16329, 4.16286, 4.16231, 4.16176]",3113.8,3.6,3.7
57,0.5,1,25,"[0.0, 19.9483, 54.6925, 90.1029, 126.66, 164.262, 205.071, 250.639, 303.953, 349.764]","[4.18058, 4.17625, 4.17314, 4.17101, 4.1692, 4.16774, 4.16676, 4.1657, 4.16483, 4.16408, 4.16333, 4.16274, 4.16223, 4.16176]",3105.81,3.6,3.7
62,0.5,1,25,"[0.0, 29.2607, 64.1364, 99.7763, 135.644, 172.803, 213.286, 258.951, 312.096, 364.023]","[4.18074, 4.17621, 4.17318, 4.17105, 4.1692, 4.16774, 4.1666, 4.16562, 4.16467, 4.164, 4.16337, 4.16282, 4.16231, 4.16184]",3098.14,3.6,3.7
67,0.5,1,25,"[0.0, 20.9321, 55.2468, 90.717, 126.951, 164.414, 204.19, 249.03, 302.006, 349.821]","[4.18074, 4.17617, 4.17306, 4.17097, 4.1692, 4.1677, 4.16652, 4.16562, 4.16471, 4.16392, 4.16329, 4.16263, 4.16215, 4.16168]",3090.99,3.6,3.7
72,0.5,1,25,"[0.0, 32.3901, 66.712, 102.065, 137.949, 175.14, 215.163, 259.922, 311.862, 364.407]","[4.18046, 4.17601, 4.1729, 4.17074, 4.169004, 4.16751, 4.16629, 4.16538, 4.16436, 4.16357, 4.1629, 4.16251, 4.16184, 4.16148]",3084.01,3.6,3.7
77,0.5,1,25,"[0.0, 31.3849, 65.8977, 101.01, 137.315, 174.369, 213.716, 258.468, 310.581, 364.288]","[4.1803, 4.17582, 4.17274, 4.1705, 4.16873, 4.16735, 4.16617, 4.16507, 4.16416, 4.16345, 4.16286, 4.16223, 4.16168, 4.16129]",3077.38,3.6,3.7
82,0.5,1,25,"[0.0, 24.5137, 58.8821, 93.6493, 129.747, 166.743, 206.238, 250.228, 302.138, 349.751]","[4.18026, 4.17582, 4.17271, 4.1705, 4.16873, 4.16731, 4.16621, 4.16511, 4.16416, 4.16349, 4.16278, 4.16215, 4.16156, 4.16113]",3071.17,3.6,3.7
87,0.5,1,25,"[0.0, 30.2636, 64.4262, 99.7348, 135.41, 172.624, 211.533, 255.591, 306.665, 349.71]","[4.18023, 4.17566, 4.17263, 4.17042, 4.16869, 4.16715, 4.16597, 4.16487, 4.16408, 4.16318, 4.16259, 4.16188, 4.16148, 4.16093]",3064.83,3.6,3.7
92,0.5,1,25,"[0.0, 25.3459, 59.2409, 94.3063, 129.916, 166.837, 205.682, 249.918, 301.3, 349.384]","[4.18003, 4.17554, 4.17239, 4.17026, 4.16837, 4.16704, 4.16581, 4.16471, 4.16377, 4.16314, 4.16251, 4.16184, 4.16125, 4.16077]",3058.61,3.6,3.7
97,0.5,1,25,"[0.0, 19.6162, 53.5319, 88.5087, 124.204, 160.962, 200.136, 243.415, 294.578, 349.795]","[4.180068, 4.175343, 4.17239, 4.170146, 4.1683, 4.1668, 4.16574, 4.16463, 4.16373, 4.1629, 4.16231, 4.1616, 4.16113, 4.16066]",3052.61,3.6,3.7
102,0.5,1,25,"[0.0, 27.4081, 61.5197, 96.6999, 131.777, 169.05, 207.69, 250.985, 301.956, 349.656]","[4.17999, 4.175343, 4.17231, 4.16995, 4.1683, 4.16676, 4.16558, 4.16455, 4.16369, 4.16294, 4.16219, 4.16172, 4.16113, 4.1605]",3046.89,3.6,3.7
107,0.5,1,25,"[0.0, 18.7476, 52.486, 87.2746, 122.968, 159.526, 198.186, 241.507, 291.142, 335.002]","[4.17991, 4.175343, 4.17231, 4.16995, 4.16818, 4.16668, 4.16562, 4.16432, 4.16357, 4.16278, 4.16211, 4.16172, 4.16097, 4.1605]",3041.44,3.6,3.7
112,0.5,1,25,"[0.0, 24.2453, 57.953, 92.6317, 127.881, 164.654, 203.409, 245.89, 295.895, 349.161]","[4.179832, 4.1753, 4.17215, 4.16999, 4.1681, 4.16664, 4.165421, 4.16436, 4.16349, 4.16278, 4.16207, 4.16141, 4.16085, 4.16054]",3035.88,3.6,3.7
117,0.5,1,25,"[0.0, 29.7131, 63.0139, 98.0416, 133.379, 169.661, 208.33, 250.86, 300.516, 349.63]","[4.17967, 4.175107, 4.17211, 4.16975, 4.16794, 4.16644, 4.1653, 4.1642, 4.16329, 4.16263, 4.16176, 4.16113, 4.16077, 4.16022]",3030.13,3.6,3.7
122,0.5,1,25,"[0.0, 23.7336, 57.1728, 91.967, 127.105, 163.4, 202.019, 244.571, 293.461, 334.925]","[4.17975, 4.17503, 4.17184, 4.16952, 4.16782, 4.16633, 4.16503, 4.16396, 4.16326, 4.16231, 4.16164, 4.16093, 4.16042, 4.15995]",3024.45,3.6,3.7
127,0.5,1,25,"[0.0, 29.6939, 62.9311, 97.5715, 132.797, 168.891, 207.399, 249.596, 298.479, 349.338]","[4.17956, 4.174871, 4.171957, 4.16959, 4.16774, 4.16613, 4.164988, 4.163846, 4.16306, 4.16215, 4.16137, 4.16085, 4.16022, 4.15975]",3018.58,3.6,3.7
132,0.5,1,25,"[0.0, 32.1047, 64.8811, 99.4486, 134.252, 170.533, 208.487, 250.78, 299.251, 348.531]","[4.1796, 4.17483, 4.1718, 4.16948, 4.16763, 4.16613, 4.16491, 4.16381, 4.16278, 4.16196, 4.16144, 4.16062, 4.16014, 4.15963]",3012.92,3.6,3.7
137,0.5,1,25,"[0.0, 22.7655, 55.3946, 89.9295, 125.103, 161.144, 199.246, 240.863, 289.642, 334.269]","[4.179635, 4.17495, 4.17176, 4.16952, 4.1677, 4.16613, 4.16487, 4.16389, 4.16282, 4.16207, 4.16129, 4.16066, 4.16018, 4.15944]",3007.25,3.6,3.7
142,0.5,1,25,"[0.0, 27.7391, 60.779, 95.2465, 129.746, 165.904, 204.122, 245.332, 293.048, 334.488]","[4.17956, 4.17483, 4.1718, 4.16948, 4.16763, 4.16605, 4.16495, 4.16373, 4.16282, 4.16215, 4.16129, 4.160696, 4.16011, 4.15963]",3001.66,3.6,3.7
147,0.5,1,25,"[0.0, 20.5705, 53.2956, 86.7981, 122.567, 158.056, 195.751, 236.905, 284.842, 334.171]","[4.17936, 4.17475, 4.17168, 4.1694, 4.16747, 4.16597, 4.16483, 4.16365, 4.162704, 4.16188, 4.16117, 4.16042, 4.15995, 4.159318]",2995.09,3.6,3.7
152,0.5,1,25,"[0.0, 28.1585, 60.9745, 94.4915, 129.295, 164.723, 202.183, 243.696, 290.863, 334.18]","[4.17936, 4.17463, 4.17156, 4.1692, 4.16739, 4.16581, 4.16467, 4.16353, 4.16263, 4.16176, 4.16101, 4.1605, 4.15983, 4.15924]",2988.04,3.6,3.7
157,0.5,1,25,"[0.0, 22.5278, 54.7166, 88.7632, 123.421, 158.96, 196.548, 237.082, 284.646, 334.404]","[4.17916, 4.17448, 4.17133, 4.16912, 4.16711, 4.16574, 4.16436, 4.16345, 4.16239, 4.1616, 4.16081, 4.16018, 4.15963, 4.15908]",2980.49,3.6,3.7
162,0.5,1,25,"[0.0, 17.7234, 50.1323, 83.5398, 118.104, 153.735, 191.072, 231.343, 278.689, 319.388]","[4.17924, 4.17452, 4.17133, 4.16904, 4.16711, 4.1657, 4.16444, 4.16333, 4.16239, 4.16148, 4.16074, 4.16011, 4.15963, 4.159]",2972.44,3.6,3.7
167,0.5,1,25,"[0.0, 26.0773, 57.9161, 91.6219, 125.903, 161.079, 198.091, 239.057, 285.14, 333.136]","[4.17897, 4.17424, 4.17101, 4.16873, 4.16688, 4.165421, 4.16404, 4.16298, 4.16192, 4.16113, 4.1605, 4.15963, 4.159121, 4.15865]",2963.76,3.6,3.7
172,0.5,1,25,"[0.0, 25.184, 56.8992, 90.1752, 124.797, 159.518, 196.902, 237.256, 283.294, 333.421]","[4.17897, 4.1742, 4.17105, 4.168807, 4.1668, 4.1653, 4.16408, 4.16294, 4.16207, 4.16109, 4.16046, 4.15963, 4.159121, 4.15849]",2955.91,3.6,3.7
177,0.5,1,25,"[0.0, 22.9666, 54.4174, 87.5825, 122.015, 156.921, 193.867, 234.127, 279.695, 332.622]","[4.17893, 4.17416, 4.17089, 4.16849, 4.16672, 4.16534, 4.16381, 4.16282, 4.1618, 4.16093, 4.1603, 4.15963, 4.15904, 4.15833]",2947.36,3.6,3.7
182,0.5,1,25,"[0.0, 17.4871, 48.9698, 81.8102, 116.063, 150.948, 187.156, 227.242, 272.623, 318.489]","[4.17877, 4.17381, 4.1707, 4.1683, 4.16648, 4.16503, 4.16365, 4.162468, 4.16156, 4.16093, 4.16007, 4.1594, 4.15877, 4.15818]",2938.08,3.6,3.7
187,0.5,1,25,"[0.0, 29.3085, 60.4796, 93.3115, 127.24, 162.113, 198.505, 238.332, 283.975, 331.343]","[4.17861, 4.173965, 4.17078, 4.16841, 4.16641, 4.16487, 4.16353, 4.16243, 4.16141, 4.16066, 4.15983, 4.1592, 4.15857, 4.15802]",2930.24,3.6,3.7
192,0.5,1,25,"[0.0, 20.7463, 51.7415, 83.9649, 118.096, 152.684, 188.938, 228.24, 273.333, 317.7]","[4.17849, 4.17369, 4.170382, 4.16806, 4.16613, 4.16459, 4.16322, 4.16231, 4.16121, 4.1603, 4.15963, 4.15885, 4.15822, 4.1577]",2922.09,3.6,3.7
193,0.5,1,25,"[0.0, 30.0102, 61.0763, 93.723, 126.787, 161.427, 197.858, 237.466, 282.193, 331.126]","[4.17853, 4.17369, 4.1705, 4.168138, 4.16621, 4.16479, 4.16322, 4.16239, 4.16125, 4.1603, 4.15951, 4.15892, 4.15833, 4.157743]",2920.51,3.6,3.7

File: CY35-05_1-#1.csv
Cycle,Charge_Current,Discharge_Current,Temperature,Capacity_Increment,Relaxation_Voltage,Discharge_Capacity,Start_Voltage,End_Voltage
2,0.5,1,35,"[0.0, 32.3705, 70.7456, 108.138, 146.081, 187.193, 230.76, 281.736, 337.135, 393.789]","[4.18538, 4.18223, 4.17983, 4.17802, 4.1768, 4.17558, 4.17467, 4.17381, 4.17306, 4.172545, 4.17184, 4.17152, 4.17089, 4.17038]",3206.96,3.6,3.7
29,0.5,1,35,"[0.0, 25.7947, 62.7385, 100.275, 137.973, 176.186, 217.212, 262.161, 315.257, 364.528]","[4.18389, 4.18018, 4.1777, 4.17589, 4.17436, 4.17314, 4.17207, 4.17129, 4.1705, 4.16983, 4.1692, 4.16873, 4.1681, 4.168056]",3111.71,3.6,3.7
58,0.5,1,35,"[0.0, 25.3849, 61.3188, 97.779, 134.925, 172.315, 211.904, 255.089, 305.014, 350.029]","[4.18365, 4.18003, 4.17766, 4.1757, 4.17416, 4.17294, 4.17199, 4.17121, 4.17038, 4.16975, 4.16916, 4.16865, 4.16817, 4.16774]",3059.3,3.6,3.7
85,0.5,1,35,"[0.0, 21.1899, 56.7242, 93.3236, 129.618, 166.498, 204.871, 247.416, 296.045, 335.372]","[4.18326, 4.17948, 4.17696, 4.175065, 4.17353, 4.17231, 4.17125, 4.17034, 4.16967, 4.16896, 4.16829, 4.1679, 4.16747, 4.16687]",3024.08,3.6,3.7
114,0.5,1,35,"[0.0, 33.1164, 67.9889, 103.65, 140.269, 176.316, 214.954, 256.041, 303.055, 349.789]","[4.18266, 4.17885, 4.17629, 4.17447, 4.17294, 4.17156, 4.17046, 4.16975, 4.16892, 4.16817, 4.16762, 4.16703, 4.16644, 4.16601]",2993.93,3.6,3.7
141,0.5,1,35,"[0.0, 20.9452, 54.9392, 90.9488, 126.863, 163.458, 201.204, 241.516, 287.33, 335.088]","[4.18259, 4.17877, 4.17589, 4.17408, 4.17243, 4.17125, 4.17018, 4.16912, 4.16853, 4.16766, 4.16711, 4.16676, 4.166048, 4.16561]",2970.24,3.6,3.7
170,0.5,1,35,"[0.0, 26.3048, 60.8515, 95.9875, 131.521, 167.974, 205.073, 245.095, 289.405, 334.86]","[4.181838, 4.177979, 4.17522, 4.17321, 4.1716, 4.17042, 4.16928, 4.16833, 4.1675, 4.1668, 4.16632, 4.16561, 4.16506, 4.16471]",2948.15,3.6,3.7
197,0.5,1,35,"[0.0, 29.0163, 63.1724, 98.0515, 133.941, 169.39, 206.453, 246.523, 289.968, 335.293]","[4.18176, 4.1777, 4.17499, 4.17282, 4.17109, 4.16999, 4.16877, 4.16794, 4.16699, 4.16632, 4.16565, 4.16526, 4.16471, 4.16416]",2928.64,3.6,3.7
226,0.5,1,35,"[0.0, 28.7542, 62.7101, 97.3259, 132.584, 168.451, 204.737, 243.428, 286.332, 320.459]","[4.18117, 4.17707, 4.17428, 4.17215, 4.17062, 4.16928, 4.16798, 4.16711, 4.16628, 4.1655, 4.16495, 4.16424, 4.1638, 4.16321]",2908.92,3.6,3.7
253,0.5,1,35,"[0.0, 31.2316, 64.6685, 98.5745, 134.165, 169.248, 206.215, 244.918, 286.753, 334.525]","[4.18081, 4.17676, 4.17392, 4.17176, 4.17014, 4.16877, 4.16758, 4.16652, 4.16565, 4.16495, 4.16435, 4.16372, 4.16298, 4.16254]",2892.91,3.6,3.7
282,0.5,1,35,"[0.0, 20.9734, 53.7508, 87.3075, 123.022, 158.664, 194.46, 232.557, 274.515, 319.44]","[4.18058, 4.17636, 4.17341, 4.17129, 4.169631, 4.16821, 4.166914, 4.16597, 4.165103, 4.16432, 4.16369, 4.16317, 4.16254, 4.16207]",2875.87,3.6,3.7
311,0.5,1,35,"[0.0, 22.8254, 55.5182, 89.2292, 124.219, 159.57, 195.48, 232.466, 274.14, 319.462]","[4.18011, 4.1757, 4.1729, 4.17073, 4.16892, 4.16739, 4.166245, 4.16526, 4.16432, 4.16357, 4.16274, 4.16203, 4.16156, 4.161047]",2859.76,3.6,3.7
338,0.5,1,35,"[0.0, 25.6356, 58.0374, 90.7832, 125.264, 160.245, 196.155, 234.068, 274.946, 318.204]","[4.17948, 4.1751, 4.17223, 4.17002, 4.16817, 4.166678, 4.1655, 4.16439, 4.163528, 4.16286, 4.16191, 4.161283, 4.16069, 4.16038]",2845.15,3.6,3.7
367,0.5,1,35,"[0.0, 28.9483, 60.8778, 94.3456, 128.585, 163.607, 198.466, 235.974, 275.918, 318.224]","[4.17904, 4.17459, 4.17172, 4.16947, 4.1675, 4.16628, 4.16495, 4.16392, 4.16298, 4.16215, 4.16148, 4.160614, 4.16014, 4.15955]",2829.86,3.6,3.7
394,0.5,1,35,"[0.0, 24.5866, 55.6259, 88.6989, 122.737, 157.795, 193.325, 230.218, 269.488, 303.359]","[4.17877, 4.174396, 4.1714, 4.16908, 4.16727, 4.16585, 4.16455, 4.16337, 4.1625, 4.16164, 4.16089, 4.1603, 4.15975, 4.15896]",2815.94,3.6,3.7
423,0.5,1,35,"[0.0, 25.4101, 56.6891, 89.3234, 123.08, 157.591, 193.062, 229.531, 268.762, 302.399]","[4.17837, 4.17381, 4.17081, 4.16845, 4.16656, 4.16502, 4.16372, 4.1627, 4.16172, 4.16085, 4.16002, 4.15935, 4.15872, 4.15821]",2801.51,3.6,3.7
450,0.5,1,35,"[0.0, 19.5185, 50.2803, 82.1357, 115.892, 150.615, 185.68, 221.644, 260.845, 288.275]","[4.17806, 4.17349, 4.17046, 4.16813, 4.16609, 4.16455, 4.16329, 4.16211, 4.16124, 4.16034, 4.15943, 4.15876, 4.15829, 4.15754]",2788.31,3.6,3.7
479,0.5,1,35,"[0.0, 27.4489, 57.8561, 89.966, 123.221, 157.051, 192.149, 227.724, 266.304, 300.99]","[4.17731, 4.17278, 4.16971, 4.16727, 4.1653, 4.16392, 4.16246, 4.16132, 4.16038, 4.159472, 4.15865, 4.15809, 4.15727, 4.15668]",2773.76,3.6,3.7
506,0.5,1,35,"[0.0, 21.4141, 51.6938, 83.1862, 116.428, 150.09, 185.16, 220.733, 258.908, 286.29]","[4.17672, 4.17219, 4.16896, 4.16644, 4.16479, 4.16298, 4.1618, 4.16065, 4.15939, 4.15868, 4.15778, 4.15715, 4.15644, 4.155849]",2761.28,3.6,3.7
535,0.5,1,35,"[0.0, 25.7184, 55.8954, 87.0626, 120.028, 153.724, 188.164, 223.751, 261.116, 299.544]","[4.1766, 4.17188, 4.16873, 4.1664, 4.16435, 4.16278, 4.16148, 4.16022, 4.15924, 4.15837, 4.1575, 4.15664, 4.15597, 4.15546]",2747.72,3.6,3.7
564,0.5,1,35,"[0.0, 28.0956, 57.7375, 88.8678, 121.536, 155.107, 188.687, 224.519, 261.615, 298.653]","[4.17609, 4.17129, 4.16794, 4.1655, 4.16361, 4.16176, 4.1605, 4.15931, 4.15825, 4.15735, 4.1564, 4.15573, 4.1551, 4.15439]",2734.72,3.6,3.7
591,0.5,1,35,"[0.0, 28.0217, 57.6032, 88.4346, 120.994, 153.842, 188.047, 222.984, 260.276, 297.086]","[4.17566, 4.17069, 4.16758, 4.16522, 4.16306, 4.161283, 4.15983, 4.15876, 4.15782, 4.15672, 4.15589, 4.15506, 4.15447, 4.15384]",2722.56,3.6,3.7
620,0.5,1,35,"[0.0, 18.0245, 47.1693, 77.954, 109.528, 142.568, 176.568, 211.573, 248.202, 283.931]","[4.1753, 4.17034, 4.16707, 4.16459, 4.1625, 4.16097, 4.15939, 4.15833, 4.15715, 4.15624, 4.15538, 4.15467, 4.154, 4.15333]",2709.76,3.6,3.7
647,0.5,1,35,"[0.0, 17.8023, 46.7265, 77.0184, 108.383, 141.864, 175.297, 209.723, 246.049, 282.709]","[4.17459, 4.169631, 4.1664, 4.1638, 4.16187, 4.16018, 4.15872, 4.15746, 4.15632, 4.15549, 4.15471, 4.15392, 4.153132, 4.152463]",2697.17,3.6,3.7
676,0.5,1,35,"[0.0, 22.1184, 51.4727, 81.034, 112.697, 145.419, 179.268, 213.246, 249.159, 281.466]","[4.17396, 4.16912, 4.16565, 4.16317, 4.16124, 4.15943, 4.15798, 4.156755, 4.15561, 4.15483, 4.1538, 4.15305, 4.1525, 4.15171]",2685.24,3.6,3.7
703,0.5,1,35,"[0.0, 26.9294, 55.9963, 85.8518, 116.849, 149.432, 182.351, 216.679, 252.255, 279.524]","[4.17341, 4.16841, 4.165103, 4.16254, 4.16053, 4.15872, 4.15727, 4.15601, 4.15494, 4.15384, 4.15297, 4.15223, 4.1514, 4.15085]",2673.03,3.6,3.7
732,0.5,1,35,"[0.0, 21.9081, 50.7857, 80.3877, 110.907, 143.171, 176.148, 210.187, 246.05, 280.242]","[4.17306, 4.16782, 4.16443, 4.16176, 4.15967, 4.15809, 4.156755, 4.15522, 4.1542, 4.15321, 4.15238, 4.151557, 4.15101, 4.15018]",2660.14,3.6,3.7
759,0.5,1,35,"[0.0, 17.1776, 45.5543, 75.1644, 105.508, 137.261, 170.316, 204.24, 238.754, 265.59]","[4.172545, 4.16739, 4.164197, 4.16144, 4.15943, 4.15778, 4.15616, 4.15494, 4.15396, 4.1529, 4.15187, 4.1512, 4.15045, 4.1499]",2649.36,3.6,3.7
788,0.5,1,35,"[0.0, 20.4403, 48.6852, 78.0788, 108.225, 139.751, 172.579, 206.024, 240.733, 263.471]","[4.17195, 4.166678, 4.16321, 4.16057, 4.15849, 4.15672, 4.1553, 4.15412, 4.15297, 4.15195, 4.15108, 4.1503, 4.14947, 4.14884]",2636.9,3.6,3.7
815,0.5,1,35,"[0.0, 18.4689, 46.7166, 75.382, 105.505, 136.819, 169.362, 202.813, 237.06, 261.231]","[4.17121, 4.166048, 4.16266, 4.15983, 4.1577, 4.15616, 4.15447, 4.15325, 4.15211, 4.15097, 4.15034, 4.14939, 4.1486, 4.14805]",2624.35,3.6,3.7
844,0.5,1,35,"[0.0, 20.8289, 48.7664, 77.6365, 107.368, 138.213, 170.498, 203.21, 237.38, 259.849]","[4.17062, 4.16538, 4.16211, 4.15924, 4.15719, 4.15542, 4.15392, 4.15258, 4.1514, 4.15053, 4.14943, 4.14876, 4.14805, 4.14719]",2612.62,3.6,3.7
873,0.5,1,35,"[0.0, 25.3209, 53.1317, 81.6224, 111.088, 141.931, 173.596, 206.668, 240.735, 272.741]","[4.1703, 4.16495, 4.1614, 4.15861, 4.15648, 4.15467, 4.15309, 4.15191, 4.15073, 4.14963, 4.14868, 4.14793, 4.14723, 4.1466]",2600.04,3.6,3.7
900,0.5,1,35,"[0.0, 22.7548, 50.4248, 78.7623, 107.996, 138.405, 169.875, 202.736, 236.606, 271.599]","[4.16987, 4.16447, 4.16081, 4.15825, 4.15605, 4.15439, 4.152699, 4.1516, 4.15026, 4.14931, 4.14833, 4.14758, 4.14675, 4.14616]",2589.76,3.6,3.7
929,0.5,1,35,"[0.0, 15.8093, 43.2264, 71.3052, 100.457, 130.602, 162.021, 194.4, 228.054, 257.282]","[4.16904, 4.163764, 4.16002, 4.15731, 4.15522, 4.15341, 4.15179, 4.15049, 4.14939, 4.14833, 4.14742, 4.14667, 4.14581, 4.14518]",2577.5,3.6,3.7
956,0.5,1,35,"[0.0, 20.8504, 48.084, 75.8893, 104.77, 134.667, 165.675, 197.688, 230.975, 254.858]","[4.16861, 4.16306, 4.15963, 4.15679, 4.15463, 4.15294, 4.15128, 4.15006, 4.14888, 4.14789, 4.14695, 4.14616, 4.14534, 4.14474]",2565.51,3.6,3.7
985,0.5,1,35,"[0.0, 15.5468, 42.4203, 70.1735, 98.7538, 128.642, 159.415, 190.962, 224.408, 255.211]","[4.1679, 4.16254, 4.15892, 4.15612, 4.154, 4.152266, 4.15065, 4.14935, 4.14813, 4.14711, 4.1462, 4.145493, 4.14471, 4.144]",2554.36,3.6,3.7
1012,0.5,1,35,"[0.0, 22.7678, 49.7665, 77.2209, 105.771, 135.103, 165.505, 197.031, 229.956, 252.251]","[4.16735, 4.16187, 4.15829, 4.15553, 4.15333, 4.151557, 4.149982, 4.1486, 4.14742, 4.14644, 4.14569, 4.144784, 4.14396, 4.143209]",2543.88,3.6,3.7
1041,0.5,1,35,"[0.0, 16.6022, 43.2814, 70.5255, 98.9042, 128.213, 158.557, 189.771, 222.295, 252.357]","[4.16676, 4.16124, 4.15754, 4.15467, 4.152699, 4.15081, 4.14919, 4.14809, 4.14687, 4.14569, 4.14506, 4.14404, 4.14317, 4.14254]",2532.35,3.6,3.7
1068,0.5,1,35,"[0.0, 22.9092, 49.3762, 76.5395, 104.406, 133.666, 163.745, 194.986, 227.212, 248.814]","[4.16601, 4.16042, 4.15683, 4.154, 4.15183, 4.149982, 4.1486, 4.14715, 4.146, 4.144784, 4.144, 4.14309, 4.1423, 4.14175]",2521.59,3.6,3.7
1097,0.5,1,35,"[0.0, 15.4683, 41.8478, 68.9359, 96.9034, 125.463, 155.604, 186.419, 217.967, 249.296]","[4.16554, 4.15983, 4.15612, 4.15341, 4.1512, 4.14923, 4.14789, 4.1466, 4.14522, 4.14439, 4.14345, 4.14242, 4.14179, 4.14096]",2510.35,3.6,3.7
1124,0.5,1,35,"[0.0, 14.7713, 41.0111, 67.8795, 95.4353, 124.141, 153.86, 184.581, 216.104, 248.11]","[4.16522, 4.15959, 4.15573, 4.15282, 4.15077, 4.14888, 4.1473, 4.14604, 4.14498, 4.14388, 4.14297, 4.14195, 4.14124, 4.14057]",2500.14,3.6,3.7